TITLE	F163L GTP
DATA TYPE	
ORIGIN	JASCO
OWNER	
DATE	21/01/20
TIME	22:01:44
SPECTROMETER/DATA SYSTEM	JASCO Corp., J-715, Rev. 1.00
RESOLUTION	
DELTAX	-0.2
XUNITS	NANOMETERS
YUNITS	CD[mdeg]
Y2UNITS	HT[V]
FIRSTX	280.0000
LASTX	197.0000
NPOINTS	416
FIRSTY	-0.57233
MAXY	2.19303
MINY	-6.82946
XYDATA
280.0000	-0.572333	276.878
279.8000	-0.57295	276.88
279.6000	-0.570595	276.889
279.4000	-0.570805	276.899
279.2000	-0.57175	276.913
279.0000	-0.569638	276.931
278.8000	-0.565648	276.95
278.6000	-0.556194	276.977
278.4000	-0.563279	277.007
278.2000	-0.57267	277.04
278.0000	-0.574499	277.08
277.8000	-0.578712	277.124
277.6000	-0.574331	277.17
277.4000	-0.576635	277.221
277.2000	-0.576938	277.272
277.0000	-0.568716	277.329
276.8000	-0.564163	277.388
276.6000	-0.568858	277.45
276.4000	-0.572169	277.516
276.2000	-0.571001	277.587
276.0000	-0.570491	277.663
275.8000	-0.579464	277.74
275.6000	-0.572868	277.823
275.4000	-0.565077	277.908
275.2000	-0.561338	277.999
275.0000	-0.565487	278.092
274.8000	-0.561813	278.191
274.6000	-0.571304	278.293
274.4000	-0.574637	278.401
274.2000	-0.572762	278.513
274.0000	-0.58318	278.627
273.8000	-0.579037	278.748
273.6000	-0.574682	278.875
273.4000	-0.578321	279.007
273.2000	-0.58744	279.143
273.0000	-0.582484	279.28
272.8000	-0.578845	279.417
272.6000	-0.57441	279.553
272.4000	-0.569791	279.69
272.2000	-0.579888	279.826
272.0000	-0.574898	279.962
271.8000	-0.573595	280.097
271.6000	-0.569029	280.229
271.4000	-0.562829	280.362
271.2000	-0.559867	280.494
271.0000	-0.554368	280.625
270.8000	-0.565845	280.756
270.6000	-0.565641	280.889
270.4000	-0.564014	281.021
270.2000	-0.571321	281.151
270.0000	-0.568654	281.282
269.8000	-0.57067	281.413
269.6000	-0.584074	281.545
269.4000	-0.578677	281.675
269.2000	-0.571037	281.805
269.0000	-0.576498	281.936
268.8000	-0.57733	282.065
268.6000	-0.583785	282.193
268.4000	-0.587566	282.321
268.2000	-0.577899	282.446
268.0000	-0.585495	282.571
267.8000	-0.571302	282.697
267.6000	-0.574162	282.819
267.4000	-0.57517	282.941
267.2000	-0.572965	283.061
267.0000	-0.577363	283.178
266.8000	-0.576814	283.295
266.6000	-0.571962	283.409
266.4000	-0.571413	283.52
266.2000	-0.572958	283.633
266.0000	-0.579601	283.742
265.8000	-0.596875	283.854
265.6000	-0.597211	283.961
265.4000	-0.587929	284.071
265.2000	-0.585642	284.181
265.0000	-0.594403	284.293
264.8000	-0.594919	284.406
264.6000	-0.589238	284.517
264.4000	-0.599072	284.628
264.2000	-0.59963	284.74
264.0000	-0.590281	284.854
263.8000	-0.592263	284.966
263.6000	-0.588701	285.082
263.4000	-0.589389	285.198
263.2000	-0.59942	285.316
263.0000	-0.59937	285.434
262.8000	-0.60682	285.551
262.6000	-0.609301	285.67
262.4000	-0.632235	285.785
262.2000	-0.62882	285.902
262.0000	-0.626479	286.02
261.8000	-0.626903	286.139
261.6000	-0.627422	286.259
261.4000	-0.642618	286.38
261.2000	-0.64643	286.5
261.0000	-0.657234	286.619
260.8000	-0.65992	286.741
260.6000	-0.657523	286.863
260.4000	-0.657254	286.987
260.2000	-0.659879	287.113
260.0000	-0.654296	287.239
259.8000	-0.66487	287.364
259.6000	-0.669195	287.494
259.4000	-0.67625	287.62
259.2000	-0.679573	287.752
259.0000	-0.663748	287.881
258.8000	-0.656642	288.014
258.6000	-0.661934	288.147
258.4000	-0.662468	288.281
258.2000	-0.669373	288.415
258.0000	-0.670429	288.549
257.8000	-0.686314	288.685
257.6000	-0.679965	288.821
257.4000	-0.681916	288.956
257.2000	-0.674088	289.092
257.0000	-0.667044	289.228
256.8000	-0.674426	289.361
256.6000	-0.682329	289.496
256.4000	-0.688323	289.631
256.2000	-0.688351	289.766
256.0000	-0.678951	289.902
255.8000	-0.676766	290.037
255.6000	-0.665244	290.176
255.4000	-0.666442	290.314
255.2000	-0.668129	290.45
255.0000	-0.663517	290.587
254.8000	-0.654318	290.724
254.6000	-0.646698	290.861
254.4000	-0.647305	290.999
254.2000	-0.634478	291.138
254.0000	-0.625748	291.277
253.8000	-0.629207	291.416
253.6000	-0.636509	291.555
253.4000	-0.642559	291.691
253.2000	-0.647992	291.831
253.0000	-0.648458	291.97
252.8000	-0.656598	292.106
252.6000	-0.661334	292.246
252.4000	-0.660119	292.382
252.2000	-0.669793	292.522
252.0000	-0.682234	292.66
251.8000	-0.689451	292.795
251.6000	-0.706392	292.934
251.4000	-0.708224	293.071
251.2000	-0.715858	293.209
251.0000	-0.727783	293.348
250.8000	-0.742061	293.489
250.6000	-0.750772	293.63
250.4000	-0.765828	293.772
250.2000	-0.791006	293.914
250.0000	-0.813222	294.06
249.8000	-0.822961	294.205
249.6000	-0.813421	294.351
249.4000	-0.821958	294.498
249.2000	-0.826797	294.645
249.0000	-0.843043	294.793
248.8000	-0.865328	294.943
248.6000	-0.867682	295.093
248.4000	-0.879585	295.245
248.2000	-0.890825	295.4
248.0000	-0.910657	295.555
247.8000	-0.923748	295.712
247.6000	-0.922534	295.872
247.4000	-0.94311	296.033
247.2000	-0.961084	296.198
247.0000	-0.963742	296.363
246.8000	-0.973886	296.53
246.6000	-0.984877	296.701
246.4000	-0.988421	296.873
246.2000	-0.994234	297.048
246.0000	-0.994523	297.227
245.8000	-1.0116	297.408
245.6000	-1.03876	297.594
245.4000	-1.04834	297.782
245.2000	-1.06409	297.975
245.0000	-1.08527	298.17
244.8000	-1.09808	298.368
244.6000	-1.12251	298.568
244.4000	-1.13849	298.771
244.2000	-1.15601	298.977
244.0000	-1.16508	299.186
243.8000	-1.17422	299.399
243.6000	-1.18323	299.616
243.4000	-1.19264	299.838
243.2000	-1.20387	300.061
243.0000	-1.24083	300.286
242.8000	-1.27535	300.518
242.6000	-1.30496	300.752
242.4000	-1.32341	300.993
242.2000	-1.34498	301.236
242.0000	-1.36486	301.484
241.8000	-1.40478	301.737
241.6000	-1.43865	301.994
241.4000	-1.46474	302.253
241.2000	-1.49734	302.52
241.0000	-1.54187	302.79
240.8000	-1.59937	303.065
240.6000	-1.64083	303.344
240.4000	-1.67664	303.626
240.2000	-1.73534	303.915
240.0000	-1.77178	304.21
239.8000	-1.7932	304.509
239.6000	-1.83483	304.813
239.4000	-1.88598	305.122
239.2000	-1.93578	305.437
239.0000	-1.97975	305.756
238.8000	-2.02232	306.082
238.6000	-2.06551	306.41
238.4000	-2.11843	306.745
238.2000	-2.16888	307.09
238.0000	-2.21319	307.438
237.8000	-2.27467	307.794
237.6000	-2.34139	308.154
237.4000	-2.39676	308.521
237.2000	-2.47138	308.894
237.0000	-2.53986	309.269
236.8000	-2.60833	309.652
236.6000	-2.68558	310.038
236.4000	-2.75884	310.43
236.2000	-2.80367	310.831
236.0000	-2.87105	311.235
235.8000	-2.9567	311.646
235.6000	-3.0181	312.062
235.4000	-3.08008	312.483
235.2000	-3.16536	312.909
235.0000	-3.23449	313.337
234.8000	-3.3051	313.771
234.6000	-3.39214	314.21
234.4000	-3.46037	314.653
234.2000	-3.54739	315.099
234.0000	-3.61394	315.548
233.8000	-3.68815	316.002
233.6000	-3.77701	316.461
233.4000	-3.8686	316.923
233.2000	-3.95277	317.389
233.0000	-4.06142	317.859
232.8000	-4.14433	318.332
232.6000	-4.22864	318.809
232.4000	-4.31262	319.288
232.2000	-4.36587	319.77
232.0000	-4.43454	320.253
231.8000	-4.50823	320.741
231.6000	-4.58306	321.228
231.4000	-4.65134	321.717
231.2000	-4.73499	322.206
231.0000	-4.8012	322.698
230.8000	-4.85953	323.192
230.6000	-4.92203	323.686
230.4000	-4.97315	324.179
230.2000	-5.04083	324.676
230.0000	-5.10288	325.172
229.8000	-5.16817	325.67
229.6000	-5.24815	326.169
229.4000	-5.31855	326.668
229.2000	-5.38866	327.168
229.0000	-5.44513	327.668
228.8000	-5.51086	328.17
228.6000	-5.56988	328.672
228.4000	-5.62921	329.176
228.2000	-5.69424	329.682
228.0000	-5.73809	330.19
227.8000	-5.79255	330.696
227.6000	-5.84788	331.208
227.4000	-5.88652	331.721
227.2000	-5.93775	332.235
227.0000	-5.96059	332.753
226.8000	-5.99029	333.27
226.6000	-6.01601	333.789
226.4000	-6.04338	334.308
226.2000	-6.07148	334.829
226.0000	-6.09929	335.353
225.8000	-6.12155	335.879
225.6000	-6.14154	336.406
225.4000	-6.19228	336.937
225.2000	-6.22001	337.471
225.0000	-6.27165	338.007
224.8000	-6.30962	338.546
224.6000	-6.3287	339.085
224.4000	-6.34219	339.63
224.2000	-6.36609	340.178
224.0000	-6.37102	340.727
223.8000	-6.41436	341.283
223.6000	-6.43943	341.842
223.4000	-6.44521	342.405
223.2000	-6.46331	342.971
223.0000	-6.48293	343.541
222.8000	-6.43938	344.115
222.6000	-6.44801	344.695
222.4000	-6.43887	345.279
222.2000	-6.4255	345.868
222.0000	-6.40767	346.462
221.8000	-6.41822	347.062
221.6000	-6.4086	347.666
221.4000	-6.39734	348.279
221.2000	-6.37584	348.896
221.0000	-6.34724	349.524
220.8000	-6.35117	350.155
220.6000	-6.35315	350.794
220.4000	-6.32927	351.44
220.2000	-6.36685	352.093
220.0000	-6.36951	352.755
219.8000	-6.34647	353.425
219.6000	-6.34548	354.106
219.4000	-6.31478	354.795
219.2000	-6.30029	355.491
219.0000	-6.32694	356.195
218.8000	-6.33029	356.91
218.6000	-6.31909	357.635
218.4000	-6.32146	358.371
218.2000	-6.31833	359.119
218.0000	-6.28051	359.88
217.8000	-6.27716	360.657
217.6000	-6.25845	361.446
217.4000	-6.25648	362.249
217.2000	-6.25205	363.069
217.0000	-6.23722	363.904
216.8000	-6.24395	364.756
216.6000	-6.25075	365.625
216.4000	-6.2632	366.515
216.2000	-6.2539	367.422
216.0000	-6.28164	368.348
215.8000	-6.29462	369.298
215.6000	-6.29497	370.269
215.4000	-6.32467	371.262
215.2000	-6.35075	372.279
215.0000	-6.33673	373.318
214.8000	-6.35668	374.381
214.6000	-6.3865	375.467
214.4000	-6.43257	376.58
214.2000	-6.47305	377.716
214.0000	-6.50732	378.882
213.8000	-6.54881	380.077
213.6000	-6.57449	381.3
213.4000	-6.59552	382.556
213.2000	-6.62552	383.845
213.0000	-6.68285	385.167
212.8000	-6.68993	386.523
212.6000	-6.72473	387.915
212.4000	-6.75484	389.345
212.2000	-6.76143	390.811
212.0000	-6.76844	392.314
211.8000	-6.81693	393.856
211.6000	-6.82946	395.438
211.4000	-6.74629	397.061
211.2000	-6.77727	398.727
211.0000	-6.78254	400.432
210.8000	-6.78898	402.184
210.6000	-6.75004	403.98
210.4000	-6.75662	405.822
210.2000	-6.76723	407.709
210.0000	-6.76265	409.644
209.8000	-6.75744	411.629
209.6000	-6.74653	413.667
209.4000	-6.76191	415.757
209.2000	-6.77223	417.9
209.0000	-6.72999	420.096
208.8000	-6.67278	422.347
208.6000	-6.64702	424.655
208.4000	-6.59295	427.021
208.2000	-6.57896	429.445
208.0000	-6.5423	431.932
207.8000	-6.48311	434.483
207.6000	-6.44308	437.098
207.4000	-6.35725	439.776
207.2000	-6.22881	442.518
207.0000	-6.12779	445.326
206.8000	-6.08301	448.201
206.6000	-5.91549	451.147
206.4000	-5.85142	454.162
206.2000	-5.77818	457.25
206.0000	-5.66521	460.414
205.8000	-5.58985	463.656
205.6000	-5.44645	466.979
205.4000	-5.31059	470.383
205.2000	-5.15648	473.869
205.0000	-4.93031	477.438
204.8000	-4.77944	481.093
204.6000	-4.76043	484.836
204.4000	-4.62475	488.668
204.2000	-4.42187	492.589
204.0000	-4.27034	496.6
203.8000	-4.14006	500.7
203.6000	-3.92828	504.891
203.4000	-3.79554	509.181
203.2000	-3.6821	513.57
203.0000	-3.46267	518.055
202.8000	-3.17344	522.638
202.6000	-3.02856	527.327
202.4000	-2.77739	532.12
202.2000	-2.52495	537.022
202.0000	-2.20768	542.029
201.8000	-1.92749	547.151
201.6000	-1.70007	552.377
201.4000	-1.53244	557.707
201.2000	-1.33824	563.151
201.0000	-1.04047	568.703
200.8000	-0.731933	574.368
200.6000	-0.632493	580.155
200.4000	-0.524149	586.063
200.2000	-0.052063	592.087
200.0000	0.428829	598.236
199.8000	0.604267	604.503
199.6000	0.472262	610.884
199.4000	0.264255	617.374
199.2000	0.753879	623.977
199.0000	1.09906	630.696
198.8000	1.12109	637.53
198.6000	1.26508	644.469
198.4000	1.30964	651.514
198.2000	1.81382	658.665
198.0000	1.5579	665.917
197.8000	1.48363	673.27
197.6000	1.3079	680.716
197.4000	1.17531	688.243
197.2000	1.72143	695.843
197.0000	2.19303	703.503
