TITLE	PE4_GEF_Assay_Scan
DATA TYPE	
ORIGIN	JASCO
OWNER	
DATE	18/08/28
TIME	11:03:56
SPECTROMETER/DATA SYSTEM	JASCO Corp., J-715, Rev. 1.00
RESOLUTION	
DELTAX	-0.2
XUNITS	NANOMETERS
YUNITS	CD[mdeg]
Y2UNITS	HT[V]
FIRSTX	280.0000
LASTX	195.0000
NPOINTS	426
FIRSTY	-0.06988
MAXY	9.81589
MINY	-8.45157
XYDATA
280.0000	-0.0698824	236
279.8000	-0.0696313	236.017
279.6000	-0.0654795	236.039
279.4000	-0.0651338	236.069
279.2000	-0.0638725	236.107
279.0000	-0.0609986	236.152
278.8000	-0.0546192	236.204
278.6000	-0.0548088	236.263
278.4000	-0.0545351	236.328
278.2000	-0.05255	236.402
278.0000	-0.0551988	236.48
277.8000	-0.0603645	236.564
277.6000	-0.0569642	236.659
277.4000	-0.0570398	236.761
277.2000	-0.046764	236.861
277.0000	-0.0519828	236.96
276.8000	-0.0585578	237.061
276.6000	-0.0536492	237.163
276.4000	-0.0546945	237.265
276.2000	-0.0625414	237.369
276.0000	-0.0648266	237.471
275.8000	-0.0609754	237.576
275.6000	-0.051708	237.683
275.4000	-0.0423247	237.789
275.2000	-0.0464213	237.896
275.0000	-0.0426098	238.004
274.8000	-0.0453467	238.11
274.6000	-0.0455718	238.213
274.4000	-0.0468504	238.318
274.2000	-0.044888	238.425
274.0000	-0.0385664	238.532
273.8000	-0.0439588	238.638
273.6000	-0.0396647	238.745
273.4000	-0.037599	238.853
273.2000	-0.031715	238.963
273.0000	-0.0468685	239.069
272.8000	-0.050492	239.177
272.6000	-0.0491416	239.287
272.4000	-0.0553711	239.4
272.2000	-0.0545444	239.514
272.0000	-0.0612188	239.632
271.8000	-0.0689939	239.752
271.6000	-0.0684666	239.87
271.4000	-0.0724356	239.992
271.2000	-0.0769059	240.115
271.0000	-0.0832406	240.237
270.8000	-0.0879418	240.356
270.6000	-0.0938259	240.475
270.4000	-0.0943726	240.592
270.2000	-0.0880621	240.713
270.0000	-0.0956611	240.83
269.8000	-0.104944	240.945
269.6000	-0.100088	241.054
269.4000	-0.0990283	241.165
269.2000	-0.102705	241.271
269.0000	-0.0984509	241.377
268.8000	-0.0946731	241.48
268.6000	-0.100321	241.58
268.4000	-0.0957432	241.68
268.2000	-0.0971391	241.779
268.0000	-0.0938714	241.878
267.8000	-0.0989988	241.979
267.6000	-0.106512	242.079
267.4000	-0.109937	242.178
267.2000	-0.100936	242.278
267.0000	-0.0980071	242.379
266.8000	-0.100488	242.479
266.6000	-0.101052	242.578
266.4000	-0.102277	242.676
266.2000	-0.100851	242.775
266.0000	-0.106644	242.871
265.8000	-0.102134	242.969
265.6000	-0.102386	243.066
265.4000	-0.105253	243.163
265.2000	-0.108448	243.258
265.0000	-0.107429	243.351
264.8000	-0.101271	243.444
264.6000	-0.109348	243.536
264.4000	-0.113938	243.624
264.2000	-0.112379	243.713
264.0000	-0.117443	243.802
263.8000	-0.126986	243.891
263.6000	-0.136844	243.975
263.4000	-0.145697	244.061
263.2000	-0.152116	244.148
263.0000	-0.156618	244.239
262.8000	-0.154681	244.327
262.6000	-0.153929	244.414
262.4000	-0.158626	244.505
262.2000	-0.161272	244.595
262.0000	-0.161921	244.688
261.8000	-0.144797	244.783
261.6000	-0.143896	244.878
261.4000	-0.141674	244.975
261.2000	-0.144362	245.074
261.0000	-0.143207	245.175
260.8000	-0.146661	245.281
260.6000	-0.151802	245.386
260.4000	-0.155403	245.493
260.2000	-0.16673	245.601
260.0000	-0.180775	245.71
259.8000	-0.179339	245.819
259.6000	-0.181754	245.929
259.4000	-0.191352	246.035
259.2000	-0.189618	246.144
259.0000	-0.2111	246.255
258.8000	-0.223355	246.363
258.6000	-0.231402	246.469
258.4000	-0.231654	246.577
258.2000	-0.23783	246.681
258.0000	-0.236413	246.788
257.8000	-0.232789	246.892
257.6000	-0.240688	246.996
257.4000	-0.241375	247.1
257.2000	-0.239316	247.205
257.0000	-0.247327	247.311
256.8000	-0.251823	247.418
256.6000	-0.264531	247.527
256.4000	-0.274057	247.638
256.2000	-0.276645	247.749
256.0000	-0.291917	247.862
255.8000	-0.2971	247.974
255.6000	-0.305244	248.085
255.4000	-0.313876	248.199
255.2000	-0.323176	248.313
255.0000	-0.334526	248.428
254.8000	-0.347388	248.544
254.6000	-0.361895	248.66
254.4000	-0.367561	248.777
254.2000	-0.370712	248.895
254.0000	-0.368282	249.012
253.8000	-0.375082	249.129
253.6000	-0.378021	249.245
253.4000	-0.371568	249.362
253.2000	-0.375438	249.481
253.0000	-0.380971	249.601
252.8000	-0.378709	249.718
252.6000	-0.38544	249.834
252.4000	-0.396739	249.95
252.2000	-0.396489	250.067
252.0000	-0.396936	250.181
251.8000	-0.40119	250.296
251.6000	-0.412775	250.41
251.4000	-0.418206	250.523
251.2000	-0.425451	250.637
251.0000	-0.425898	250.747
250.8000	-0.441003	250.857
250.6000	-0.454176	250.966
250.4000	-0.460331	251.073
250.2000	-0.4656	251.181
250.0000	-0.479143	251.292
249.8000	-0.479099	251.403
249.6000	-0.487518	251.513
249.4000	-0.48964	251.621
249.2000	-0.499481	251.73
249.0000	-0.508444	251.839
248.8000	-0.519822	251.952
248.6000	-0.536629	252.066
248.4000	-0.553071	252.184
248.2000	-0.563434	252.304
248.0000	-0.581176	252.427
247.8000	-0.59904	252.553
247.6000	-0.622035	252.682
247.4000	-0.639037	252.813
247.2000	-0.64834	252.942
247.0000	-0.663884	253.077
246.8000	-0.682023	253.215
246.6000	-0.689375	253.353
246.4000	-0.698012	253.494
246.2000	-0.702948	253.634
246.0000	-0.713118	253.776
245.8000	-0.715243	253.919
245.6000	-0.732353	254.065
245.4000	-0.737929	254.211
245.2000	-0.753322	254.36
245.0000	-0.757166	254.509
244.8000	-0.763719	254.66
244.6000	-0.779269	254.814
244.4000	-0.792913	254.97
244.2000	-0.816154	255.127
244.0000	-0.828961	255.288
243.8000	-0.86185	255.456
243.6000	-0.898979	255.627
243.4000	-0.926258	255.804
243.2000	-0.952291	255.982
243.0000	-0.98687	256.163
242.8000	-1.0071	256.347
242.6000	-1.0349	256.534
242.4000	-1.06387	256.723
242.2000	-1.10833	256.918
242.0000	-1.13951	257.116
241.8000	-1.18352	257.318
241.6000	-1.21859	257.524
241.4000	-1.25487	257.736
241.2000	-1.28976	257.948
241.0000	-1.32812	258.164
240.8000	-1.36073	258.383
240.6000	-1.40185	258.605
240.4000	-1.44598	258.831
240.2000	-1.49336	259.061
240.0000	-1.54651	259.295
239.8000	-1.59482	259.535
239.6000	-1.64078	259.779
239.4000	-1.69442	260.025
239.2000	-1.74913	260.278
239.0000	-1.80033	260.534
238.8000	-1.86653	260.795
238.6000	-1.91883	261.057
238.4000	-1.99755	261.324
238.2000	-2.06932	261.596
238.0000	-2.14385	261.87
237.8000	-2.21305	262.148
237.6000	-2.27882	262.431
237.4000	-2.35041	262.718
237.2000	-2.42288	263.009
237.0000	-2.50365	263.304
236.8000	-2.58813	263.603
236.6000	-2.67135	263.907
236.4000	-2.75025	264.213
236.2000	-2.82839	264.524
236.0000	-2.90612	264.84
235.8000	-2.99189	265.162
235.6000	-3.06632	265.488
235.4000	-3.14121	265.814
235.2000	-3.22479	266.147
235.0000	-3.31081	266.484
234.8000	-3.40908	266.827
234.6000	-3.49099	267.172
234.4000	-3.59468	267.518
234.2000	-3.67322	267.869
234.0000	-3.75655	268.223
233.8000	-3.8476	268.582
233.6000	-3.92464	268.944
233.4000	-4.00935	269.309
233.2000	-4.10763	269.677
233.0000	-4.19133	270.046
232.8000	-4.28475	270.415
232.6000	-4.3775	270.787
232.4000	-4.47772	271.157
232.2000	-4.55427	271.527
232.0000	-4.63193	271.897
231.8000	-4.72435	272.267
231.6000	-4.8044	272.641
231.4000	-4.89324	273.013
231.2000	-4.99322	273.385
231.0000	-5.09083	273.755
230.8000	-5.18875	274.127
230.6000	-5.27634	274.498
230.4000	-5.36843	274.87
230.2000	-5.45862	275.246
230.0000	-5.54285	275.622
229.8000	-5.64484	275.999
229.6000	-5.72753	276.379
229.4000	-5.81856	276.76
229.2000	-5.90464	277.14
229.0000	-5.99279	277.52
228.8000	-6.08399	277.899
228.6000	-6.17013	278.277
228.4000	-6.24247	278.655
228.2000	-6.31495	279.033
228.0000	-6.40088	279.41
227.8000	-6.46971	279.786
227.6000	-6.52796	280.16
227.4000	-6.5975	280.533
227.2000	-6.67137	280.906
227.0000	-6.73035	281.28
226.8000	-6.79194	281.654
226.6000	-6.86344	282.03
226.4000	-6.91296	282.406
226.2000	-6.96484	282.784
226.0000	-7.02925	283.163
225.8000	-7.07473	283.544
225.6000	-7.1217	283.927
225.4000	-7.1614	284.309
225.2000	-7.21013	284.694
225.0000	-7.25941	285.078
224.8000	-7.3233	285.465
224.6000	-7.35353	285.853
224.4000	-7.3758	286.245
224.2000	-7.40497	286.636
224.0000	-7.44665	287.029
223.8000	-7.48577	287.424
223.6000	-7.52846	287.822
223.4000	-7.57454	288.221
223.2000	-7.59675	288.622
223.0000	-7.60969	289.026
222.8000	-7.62702	289.433
222.6000	-7.6628	289.84
222.4000	-7.67723	290.255
222.2000	-7.68524	290.673
222.0000	-7.70358	291.094
221.8000	-7.72662	291.516
221.6000	-7.73805	291.941
221.4000	-7.75811	292.371
221.2000	-7.76175	292.802
221.0000	-7.7608	293.235
220.8000	-7.77139	293.67
220.6000	-7.77718	294.11
220.4000	-7.80087	294.556
220.2000	-7.82399	295.007
220.0000	-7.81199	295.462
219.8000	-7.82348	295.923
219.6000	-7.83852	296.386
219.4000	-7.8583	296.856
219.2000	-7.87605	297.335
219.0000	-7.88702	297.822
218.8000	-7.90968	298.315
218.6000	-7.91256	298.816
218.4000	-7.91942	299.327
218.2000	-7.92389	299.846
218.0000	-7.92157	300.373
217.8000	-7.90576	300.908
217.6000	-7.88971	301.449
217.4000	-7.91068	301.998
217.2000	-7.92825	302.556
217.0000	-7.90975	303.125
216.8000	-7.8744	303.701
216.6000	-7.86297	304.285
216.4000	-7.85751	304.878
216.2000	-7.85194	305.48
216.0000	-7.85387	306.092
215.8000	-7.85121	306.717
215.6000	-7.83763	307.352
215.4000	-7.82497	308.004
215.2000	-7.82139	308.672
215.0000	-7.83934	309.355
214.8000	-7.84779	310.056
214.6000	-7.85205	310.775
214.4000	-7.8474	311.512
214.2000	-7.86092	312.267
214.0000	-7.90025	313.043
213.8000	-7.91181	313.84
213.6000	-7.92159	314.658
213.4000	-7.92339	315.5
213.2000	-7.91897	316.362
213.0000	-7.94219	317.246
212.8000	-7.9753	318.153
212.6000	-8.01293	319.08
212.4000	-8.03093	320.029
212.2000	-8.04856	321.001
212.0000	-8.08217	321.998
211.8000	-8.10379	323.019
211.6000	-8.13337	324.064
211.4000	-8.17889	325.138
211.2000	-8.2062	326.241
211.0000	-8.22915	327.37
210.8000	-8.26259	328.525
210.6000	-8.31008	329.707
210.4000	-8.3506	330.921
210.2000	-8.37797	332.171
210.0000	-8.40999	333.453
209.8000	-8.43143	334.775
209.6000	-8.44768	336.131
209.4000	-8.45157	337.524
209.2000	-8.4505	338.954
209.0000	-8.44451	340.422
208.8000	-8.42036	341.925
208.6000	-8.38897	343.463
208.4000	-8.35947	345.036
208.2000	-8.30139	346.648
208.0000	-8.23616	348.303
207.8000	-8.1424	350.004
207.6000	-8.09383	351.747
207.4000	-7.98652	353.532
207.2000	-7.88421	355.356
207.0000	-7.78462	357.222
206.8000	-7.6798	359.134
206.6000	-7.56301	361.093
206.4000	-7.41118	363.103
206.2000	-7.26852	365.163
206.0000	-7.11792	367.271
205.8000	-6.99218	369.434
205.6000	-6.82186	371.648
205.4000	-6.68815	373.916
205.2000	-6.52556	376.238
205.0000	-6.33392	378.604
204.8000	-6.18281	381.025
204.6000	-5.98481	383.5
204.4000	-5.78588	386.033
204.2000	-5.57692	388.626
204.0000	-5.36601	391.284
203.8000	-5.10872	394.001
203.6000	-4.89842	396.777
203.4000	-4.65499	399.622
203.2000	-4.48742	402.536
203.0000	-4.20629	405.518
202.8000	-3.92503	408.569
202.6000	-3.63177	411.689
202.4000	-3.31643	414.88
202.2000	-3.00546	418.144
202.0000	-2.70752	421.479
201.8000	-2.41323	424.886
201.6000	-2.10942	428.364
201.4000	-1.82926	431.914
201.2000	-1.50097	435.535
201.0000	-1.11289	439.233
200.8000	-0.778676	443.005
200.6000	-0.350318	446.857
200.4000	0.066025	450.788
200.2000	0.50639	454.803
200.0000	0.906909	458.905
199.8000	1.32055	463.1
199.6000	1.80994	467.387
199.4000	2.35805	471.76
199.2000	2.85872	476.224
199.0000	3.26119	480.793
198.8000	3.81891	485.462
198.6000	4.21549	490.232
198.4000	4.6417	495.107
198.2000	5.15342	500.098
198.0000	5.49093	505.197
197.8000	5.91881	510.412
197.6000	6.5069	515.742
197.4000	6.95534	521.175
197.2000	7.27592	526.727
197.0000	7.66666	532.412
196.8000	7.84737	538.24
196.6000	7.99678	544.229
196.4000	8.30198	550.366
196.2000	8.58086	556.674
196.0000	8.9394	563.163
195.8000	9.27875	569.844
195.6000	9.48021	576.719
195.4000	9.58867	583.797
195.2000	9.80664	591.091
195.0000	9.81589	598.606
